key_resp.keys,key_resp.corr,key_resp.rt,totalScore,trials.thisRepN,trials.thisTrialN,trials.thisN,trials.thisIndex,trials.ran,index,image_file,correct,participant,session,date,expName,psychopyVersion,OS,frameRate
4,1,17.7964,1,0,0,0,0,1,0,1.jpg,4,113,001,2021-07-31_03h10.09.264,Ravens Progressive Matrices,2021.1.1,Win32,39.89149513
5,1,5.2131,2,0,1,1,1,1,1,2.jpg,5,113,001,2021-07-31_03h10.09.264,Ravens Progressive Matrices,2021.1.1,Win32,39.89149513
1,1,6.2906,3,0,2,2,2,1,2,3.jpg,1,113,001,2021-07-31_03h10.09.264,Ravens Progressive Matrices,2021.1.1,Win32,39.89149513
2,1,7.4613,4,0,3,3,3,1,3,4.jpg,2,113,001,2021-07-31_03h10.09.264,Ravens Progressive Matrices,2021.1.1,Win32,39.89149513
6,1,9.1965,5,0,4,4,4,1,4,5.jpg,6,113,001,2021-07-31_03h10.09.264,Ravens Progressive Matrices,2021.1.1,Win32,39.89149513
3,1,11.3479,6,0,5,5,5,1,5,6.jpg,3,113,001,2021-07-31_03h10.09.264,Ravens Progressive Matrices,2021.1.1,Win32,39.89149513
6,1,11.3987,7,0,6,6,6,1,6,7.jpg,6,113,001,2021-07-31_03h10.09.264,Ravens Progressive Matrices,2021.1.1,Win32,39.89149513
6,0,13.9389,7,0,7,7,7,1,7,8.jpg,2,113,001,2021-07-31_03h10.09.264,Ravens Progressive Matrices,2021.1.1,Win32,39.89149513
1,1,10.5539,8,0,8,8,8,1,8,9.jpg,1,113,001,2021-07-31_03h10.09.264,Ravens Progressive Matrices,2021.1.1,Win32,39.89149513
3,1,21.1083,9,0,9,9,9,1,9,10.jpg,3,113,001,2021-07-31_03h10.09.264,Ravens Progressive Matrices,2021.1.1,Win32,39.89149513
6,0,55.1701,9,0,10,10,10,1,10,11.jpg,5,113,001,2021-07-31_03h10.09.264,Ravens Progressive Matrices,2021.1.1,Win32,39.89149513
4,1,22.8491,10,0,11,11,11,1,11,12.jpg,4,113,001,2021-07-31_03h10.09.264,Ravens Progressive Matrices,2021.1.1,Win32,39.89149513
2,1,6.7645,11,0,12,12,12,1,12,13.jpg,2,113,001,2021-07-31_03h10.09.264,Ravens Progressive Matrices,2021.1.1,Win32,39.89149513
6,1,25.6766,12,0,13,13,13,1,13,14.jpg,6,113,001,2021-07-31_03h10.09.264,Ravens Progressive Matrices,2021.1.1,Win32,39.89149513
1,1,11.0568,13,0,14,14,14,1,14,15.jpg,1,113,001,2021-07-31_03h10.09.264,Ravens Progressive Matrices,2021.1.1,Win32,39.89149513
2,1,11.8613,14,0,15,15,15,1,15,16.jpg,2,113,001,2021-07-31_03h10.09.264,Ravens Progressive Matrices,2021.1.1,Win32,39.89149513
5,0,8.7239,14,0,16,16,16,1,16,17.jpg,1,113,001,2021-07-31_03h10.09.264,Ravens Progressive Matrices,2021.1.1,Win32,39.89149513
3,1,20.2447,15,0,17,17,17,1,17,18.jpg,3,113,001,2021-07-31_03h10.09.264,Ravens Progressive Matrices,2021.1.1,Win32,39.89149513
5,1,10.1647,16,0,18,18,18,1,18,19.jpg,5,113,001,2021-07-31_03h10.09.264,Ravens Progressive Matrices,2021.1.1,Win32,39.89149513
6,1,11.8229,17,0,19,19,19,1,19,20.jpg,6,113,001,2021-07-31_03h10.09.264,Ravens Progressive Matrices,2021.1.1,Win32,39.89149513
5,0,7.0036,17,0,20,20,20,1,20,21.jpg,4,113,001,2021-07-31_03h10.09.264,Ravens Progressive Matrices,2021.1.1,Win32,39.89149513
3,1,13.85,18,0,21,21,21,1,21,22.jpg,3,113,001,2021-07-31_03h10.09.264,Ravens Progressive Matrices,2021.1.1,Win32,39.89149513
4,1,14.2442,19,0,22,22,22,1,22,23.jpg,4,113,001,2021-07-31_03h10.09.264,Ravens Progressive Matrices,2021.1.1,Win32,39.89149513
5,1,54.2993,20,0,23,23,23,1,23,24.jpg,5,113,001,2021-07-31_03h10.09.264,Ravens Progressive Matrices,2021.1.1,Win32,39.89149513
8,1,20.7387,21,0,24,24,24,1,24,25.jpg,8,113,001,2021-07-31_03h10.09.264,Ravens Progressive Matrices,2021.1.1,Win32,39.89149513
2,1,23.9863,22,0,25,25,25,1,25,26.jpg,2,113,001,2021-07-31_03h10.09.264,Ravens Progressive Matrices,2021.1.1,Win32,39.89149513
3,1,85.4165,23,0,26,26,26,1,26,27.jpg,3,113,001,2021-07-31_03h10.09.264,Ravens Progressive Matrices,2021.1.1,Win32,39.89149513
8,1,54.2789,24,0,27,27,27,1,27,28.jpg,8,113,001,2021-07-31_03h10.09.264,Ravens Progressive Matrices,2021.1.1,Win32,39.89149513
7,1,25.5489,25,0,28,28,28,1,28,29.jpg,7,113,001,2021-07-31_03h10.09.264,Ravens Progressive Matrices,2021.1.1,Win32,39.89149513
4,1,36.6842,26,0,29,29,29,1,29,30.jpg,4,113,001,2021-07-31_03h10.09.264,Ravens Progressive Matrices,2021.1.1,Win32,39.89149513
5,1,18.8351,27,0,30,30,30,1,30,31.jpg,5,113,001,2021-07-31_03h10.09.264,Ravens Progressive Matrices,2021.1.1,Win32,39.89149513
1,1,82.4134,28,0,31,31,31,1,31,32.jpg,1,113,001,2021-07-31_03h10.09.264,Ravens Progressive Matrices,2021.1.1,Win32,39.89149513
7,1,16.1324,29,0,32,32,32,1,32,33.jpg,7,113,001,2021-07-31_03h10.09.264,Ravens Progressive Matrices,2021.1.1,Win32,39.89149513
6,1,35.7129,30,0,33,33,33,1,33,34.jpg,6,113,001,2021-07-31_03h10.09.264,Ravens Progressive Matrices,2021.1.1,Win32,39.89149513
1,1,56.9392,31,0,34,34,34,1,34,35.jpg,1,113,001,2021-07-31_03h10.09.264,Ravens Progressive Matrices,2021.1.1,Win32,39.89149513
2,1,64.3643,32,0,35,35,35,1,35,36.jpg,2,113,001,2021-07-31_03h10.09.264,Ravens Progressive Matrices,2021.1.1,Win32,39.89149513
3,1,8.6462,33,0,36,36,36,1,36,37.jpg,3,113,001,2021-07-31_03h10.09.264,Ravens Progressive Matrices,2021.1.1,Win32,39.89149513
4,1,12.6993,34,0,37,37,37,1,37,38.jpg,4,113,001,2021-07-31_03h10.09.264,Ravens Progressive Matrices,2021.1.1,Win32,39.89149513
3,1,14.1375,35,0,38,38,38,1,38,39.jpg,3,113,001,2021-07-31_03h10.09.264,Ravens Progressive Matrices,2021.1.1,Win32,39.89149513
7,1,10.0532,36,0,39,39,39,1,39,40.jpg,7,113,001,2021-07-31_03h10.09.264,Ravens Progressive Matrices,2021.1.1,Win32,39.89149513
8,1,17.2645,37,0,40,40,40,1,40,41.jpg,8,113,001,2021-07-31_03h10.09.264,Ravens Progressive Matrices,2021.1.1,Win32,39.89149513
6,1,83.1581,38,0,41,41,41,1,41,42.jpg,6,113,001,2021-07-31_03h10.09.264,Ravens Progressive Matrices,2021.1.1,Win32,39.89149513
5,1,54.2028,39,0,42,42,42,1,42,43.jpg,5,113,001,2021-07-31_03h10.09.264,Ravens Progressive Matrices,2021.1.1,Win32,39.89149513
4,1,57.543,40,0,43,43,43,1,43,44.jpg,4,113,001,2021-07-31_03h10.09.264,Ravens Progressive Matrices,2021.1.1,Win32,39.89149513
1,1,60.4537,41,0,44,44,44,1,44,45.jpg,1,113,001,2021-07-31_03h10.09.264,Ravens Progressive Matrices,2021.1.1,Win32,39.89149513
2,1,87.5397,42,0,45,45,45,1,45,46.jpg,2,113,001,2021-07-31_03h10.09.264,Ravens Progressive Matrices,2021.1.1,Win32,39.89149513
3,0,53.6985,42,0,46,46,46,1,46,47.jpg,5,113,001,2021-07-31_03h10.09.264,Ravens Progressive Matrices,2021.1.1,Win32,39.89149513
6,0,130.0942,42,0,47,47,47,1,47,48.jpg,7,113,001,2021-07-31_03h10.09.264,Ravens Progressive Matrices,2021.1.1,Win32,39.89149513
7,1,17.7536,43,0,48,48,48,1,48,49.jpg,7,113,001,2021-07-31_03h10.09.264,Ravens Progressive Matrices,2021.1.1,Win32,39.89149513
6,1,43.5286,44,0,49,49,49,1,49,50.jpg,6,113,001,2021-07-31_03h10.09.264,Ravens Progressive Matrices,2021.1.1,Win32,39.89149513
8,1,32.8818,45,0,50,50,50,1,50,51.jpg,8,113,001,2021-07-31_03h10.09.264,Ravens Progressive Matrices,2021.1.1,Win32,39.89149513
2,1,33.4545,46,0,51,51,51,1,51,52.jpg,2,113,001,2021-07-31_03h10.09.264,Ravens Progressive Matrices,2021.1.1,Win32,39.89149513
1,1,24.1691,47,0,52,52,52,1,52,53.jpg,1,113,001,2021-07-31_03h10.09.264,Ravens Progressive Matrices,2021.1.1,Win32,39.89149513
5,1,22.8458,48,0,53,53,53,1,53,54.jpg,5,113,001,2021-07-31_03h10.09.264,Ravens Progressive Matrices,2021.1.1,Win32,39.89149513
2,0,55.045,48,0,54,54,54,1,54,55.jpg,6,113,001,2021-07-31_03h10.09.264,Ravens Progressive Matrices,2021.1.1,Win32,39.89149513
5,0,85.2802,48,0,55,55,55,1,55,56.jpg,4,113,001,2021-07-31_03h10.09.264,Ravens Progressive Matrices,2021.1.1,Win32,39.89149513
2,0,29.6343,48,0,56,56,56,1,56,57.jpg,1,113,001,2021-07-31_03h10.09.264,Ravens Progressive Matrices,2021.1.1,Win32,39.89149513
