key_resp.keys,key_resp.corr,key_resp.rt,totalScore,trials.thisRepN,trials.thisTrialN,trials.thisN,trials.thisIndex,trials.ran,index,image_file,correct,participant,session,date,expName,psychopyVersion,OS,frameRate
4,1,11.6858,1,0,0,0,0,1,0,1.jpg,4,26,001,2021-06-12_22h04.07.480,Ravens Progressive Matrices,2021.1.1,MacIntel,60.14675809
5,1,11.3239,2,0,1,1,1,1,1,2.jpg,5,26,001,2021-06-12_22h04.07.480,Ravens Progressive Matrices,2021.1.1,MacIntel,60.14675809
1,1,5.5121,3,0,2,2,2,1,2,3.jpg,1,26,001,2021-06-12_22h04.07.480,Ravens Progressive Matrices,2021.1.1,MacIntel,60.14675809
2,1,8.9404,4,0,3,3,3,1,3,4.jpg,2,26,001,2021-06-12_22h04.07.480,Ravens Progressive Matrices,2021.1.1,MacIntel,60.14675809
6,1,8.7606,5,0,4,4,4,1,4,5.jpg,6,26,001,2021-06-12_22h04.07.480,Ravens Progressive Matrices,2021.1.1,MacIntel,60.14675809
3,1,3.5169,6,0,5,5,5,1,5,6.jpg,3,26,001,2021-06-12_22h04.07.480,Ravens Progressive Matrices,2021.1.1,MacIntel,60.14675809
6,1,6.7613,7,0,6,6,6,1,6,7.jpg,6,26,001,2021-06-12_22h04.07.480,Ravens Progressive Matrices,2021.1.1,MacIntel,60.14675809
2,1,6.2927,8,0,7,7,7,1,7,8.jpg,2,26,001,2021-06-12_22h04.07.480,Ravens Progressive Matrices,2021.1.1,MacIntel,60.14675809
1,1,9.1063,9,0,8,8,8,1,8,9.jpg,1,26,001,2021-06-12_22h04.07.480,Ravens Progressive Matrices,2021.1.1,MacIntel,60.14675809
3,1,7.6562,10,0,9,9,9,1,9,10.jpg,3,26,001,2021-06-12_22h04.07.480,Ravens Progressive Matrices,2021.1.1,MacIntel,60.14675809
5,1,17.5851,11,0,10,10,10,1,10,11.jpg,5,26,001,2021-06-12_22h04.07.480,Ravens Progressive Matrices,2021.1.1,MacIntel,60.14675809
4,1,7.866,12,0,11,11,11,1,11,12.jpg,4,26,001,2021-06-12_22h04.07.480,Ravens Progressive Matrices,2021.1.1,MacIntel,60.14675809
2,1,5.181,13,0,12,12,12,1,12,13.jpg,2,26,001,2021-06-12_22h04.07.480,Ravens Progressive Matrices,2021.1.1,MacIntel,60.14675809
6,1,7.891,14,0,13,13,13,1,13,14.jpg,6,26,001,2021-06-12_22h04.07.480,Ravens Progressive Matrices,2021.1.1,MacIntel,60.14675809
1,1,4.8819,15,0,14,14,14,1,14,15.jpg,1,26,001,2021-06-12_22h04.07.480,Ravens Progressive Matrices,2021.1.1,MacIntel,60.14675809
2,1,5.3142,16,0,15,15,15,1,15,16.jpg,2,26,001,2021-06-12_22h04.07.480,Ravens Progressive Matrices,2021.1.1,MacIntel,60.14675809
1,1,5.7295,17,0,16,16,16,1,16,17.jpg,1,26,001,2021-06-12_22h04.07.480,Ravens Progressive Matrices,2021.1.1,MacIntel,60.14675809
3,1,5.4467,18,0,17,17,17,1,17,18.jpg,3,26,001,2021-06-12_22h04.07.480,Ravens Progressive Matrices,2021.1.1,MacIntel,60.14675809
5,1,7.0096,19,0,18,18,18,1,18,19.jpg,5,26,001,2021-06-12_22h04.07.480,Ravens Progressive Matrices,2021.1.1,MacIntel,60.14675809
6,1,5.6988,20,0,19,19,19,1,19,20.jpg,6,26,001,2021-06-12_22h04.07.480,Ravens Progressive Matrices,2021.1.1,MacIntel,60.14675809
4,1,6.5778,21,0,20,20,20,1,20,21.jpg,4,26,001,2021-06-12_22h04.07.480,Ravens Progressive Matrices,2021.1.1,MacIntel,60.14675809
3,1,7.2194,22,0,21,21,21,1,21,22.jpg,3,26,001,2021-06-12_22h04.07.480,Ravens Progressive Matrices,2021.1.1,MacIntel,60.14675809
4,1,6.9744,23,0,22,22,22,1,22,23.jpg,4,26,001,2021-06-12_22h04.07.480,Ravens Progressive Matrices,2021.1.1,MacIntel,60.14675809
5,1,11.9499,24,0,23,23,23,1,23,24.jpg,5,26,001,2021-06-12_22h04.07.480,Ravens Progressive Matrices,2021.1.1,MacIntel,60.14675809
8,1,14.36,25,0,24,24,24,1,24,25.jpg,8,26,001,2021-06-12_22h04.07.480,Ravens Progressive Matrices,2021.1.1,MacIntel,60.14675809
2,1,7.8388,26,0,25,25,25,1,25,26.jpg,2,26,001,2021-06-12_22h04.07.480,Ravens Progressive Matrices,2021.1.1,MacIntel,60.14675809
3,1,10.5502,27,0,26,26,26,1,26,27.jpg,3,26,001,2021-06-12_22h04.07.480,Ravens Progressive Matrices,2021.1.1,MacIntel,60.14675809
8,1,16.8019,28,0,27,27,27,1,27,28.jpg,8,26,001,2021-06-12_22h04.07.480,Ravens Progressive Matrices,2021.1.1,MacIntel,60.14675809
7,1,21.6426,29,0,28,28,28,1,28,29.jpg,7,26,001,2021-06-12_22h04.07.480,Ravens Progressive Matrices,2021.1.1,MacIntel,60.14675809
4,1,19.4321,30,0,29,29,29,1,29,30.jpg,4,26,001,2021-06-12_22h04.07.480,Ravens Progressive Matrices,2021.1.1,MacIntel,60.14675809
5,1,10.5164,31,0,30,30,30,1,30,31.jpg,5,26,001,2021-06-12_22h04.07.480,Ravens Progressive Matrices,2021.1.1,MacIntel,60.14675809
1,1,16.4483,32,0,31,31,31,1,31,32.jpg,1,26,001,2021-06-12_22h04.07.480,Ravens Progressive Matrices,2021.1.1,MacIntel,60.14675809
7,1,10.9983,33,0,32,32,32,1,32,33.jpg,7,26,001,2021-06-12_22h04.07.480,Ravens Progressive Matrices,2021.1.1,MacIntel,60.14675809
6,1,10.4177,34,0,33,33,33,1,33,34.jpg,6,26,001,2021-06-12_22h04.07.480,Ravens Progressive Matrices,2021.1.1,MacIntel,60.14675809
1,1,108.0045,35,0,34,34,34,1,34,35.jpg,1,26,001,2021-06-12_22h04.07.480,Ravens Progressive Matrices,2021.1.1,MacIntel,60.14675809
8,0,68.2828,35,0,35,35,35,1,35,36.jpg,2,26,001,2021-06-12_22h04.07.480,Ravens Progressive Matrices,2021.1.1,MacIntel,60.14675809
3,1,5.5601,36,0,36,36,36,1,36,37.jpg,3,26,001,2021-06-12_22h04.07.480,Ravens Progressive Matrices,2021.1.1,MacIntel,60.14675809
4,1,12.0185,37,0,37,37,37,1,37,38.jpg,4,26,001,2021-06-12_22h04.07.480,Ravens Progressive Matrices,2021.1.1,MacIntel,60.14675809
3,1,31.7018,38,0,38,38,38,1,38,39.jpg,3,26,001,2021-06-12_22h04.07.480,Ravens Progressive Matrices,2021.1.1,MacIntel,60.14675809
7,1,9.0061,39,0,39,39,39,1,39,40.jpg,7,26,001,2021-06-12_22h04.07.480,Ravens Progressive Matrices,2021.1.1,MacIntel,60.14675809
8,1,6.5092,40,0,40,40,40,1,40,41.jpg,8,26,001,2021-06-12_22h04.07.480,Ravens Progressive Matrices,2021.1.1,MacIntel,60.14675809
6,1,19.531,41,0,41,41,41,1,41,42.jpg,6,26,001,2021-06-12_22h04.07.480,Ravens Progressive Matrices,2021.1.1,MacIntel,60.14675809
5,1,24.6841,42,0,42,42,42,1,42,43.jpg,5,26,001,2021-06-12_22h04.07.480,Ravens Progressive Matrices,2021.1.1,MacIntel,60.14675809
4,1,29.1919,43,0,43,43,43,1,43,44.jpg,4,26,001,2021-06-12_22h04.07.480,Ravens Progressive Matrices,2021.1.1,MacIntel,60.14675809
1,1,14.1099,44,0,44,44,44,1,44,45.jpg,1,26,001,2021-06-12_22h04.07.480,Ravens Progressive Matrices,2021.1.1,MacIntel,60.14675809
2,1,38.7034,45,0,45,45,45,1,45,46.jpg,2,26,001,2021-06-12_22h04.07.480,Ravens Progressive Matrices,2021.1.1,MacIntel,60.14675809
5,1,53.8185,46,0,46,46,46,1,46,47.jpg,5,26,001,2021-06-12_22h04.07.480,Ravens Progressive Matrices,2021.1.1,MacIntel,60.14675809
6,0,34.5481,46,0,47,47,47,1,47,48.jpg,7,26,001,2021-06-12_22h04.07.480,Ravens Progressive Matrices,2021.1.1,MacIntel,60.14675809
7,1,13.0321,47,0,48,48,48,1,48,49.jpg,7,26,001,2021-06-12_22h04.07.480,Ravens Progressive Matrices,2021.1.1,MacIntel,60.14675809
6,1,22.4756,48,0,49,49,49,1,49,50.jpg,6,26,001,2021-06-12_22h04.07.480,Ravens Progressive Matrices,2021.1.1,MacIntel,60.14675809
8,1,11.235,49,0,50,50,50,1,50,51.jpg,8,26,001,2021-06-12_22h04.07.480,Ravens Progressive Matrices,2021.1.1,MacIntel,60.14675809
2,1,31.3545,50,0,51,51,51,1,51,52.jpg,2,26,001,2021-06-12_22h04.07.480,Ravens Progressive Matrices,2021.1.1,MacIntel,60.14675809
1,1,11.9961,51,0,52,52,52,1,52,53.jpg,1,26,001,2021-06-12_22h04.07.480,Ravens Progressive Matrices,2021.1.1,MacIntel,60.14675809
5,1,30.2384,52,0,53,53,53,1,53,54.jpg,5,26,001,2021-06-12_22h04.07.480,Ravens Progressive Matrices,2021.1.1,MacIntel,60.14675809
3,0,38.2044,52,0,54,54,54,1,54,55.jpg,6,26,001,2021-06-12_22h04.07.480,Ravens Progressive Matrices,2021.1.1,MacIntel,60.14675809
3,0,108.9668,52,0,55,55,55,1,55,56.jpg,4,26,001,2021-06-12_22h04.07.480,Ravens Progressive Matrices,2021.1.1,MacIntel,60.14675809
1,1,136.3056,53,0,56,56,56,1,56,57.jpg,1,26,001,2021-06-12_22h04.07.480,Ravens Progressive Matrices,2021.1.1,MacIntel,60.14675809
2,0,38.1554,53,0,57,57,57,1,57,58.jpg,6,26,001,2021-06-12_22h04.07.480,Ravens Progressive Matrices,2021.1.1,MacIntel,60.14675809
1,0,138.1684,53,0,58,58,58,1,58,59.jpg,3,26,001,2021-06-12_22h04.07.480,Ravens Progressive Matrices,2021.1.1,MacIntel,60.14675809
2,0,100.1891,53,0,59,59,59,1,59,60.jpg,5,26,001,2021-06-12_22h04.07.480,Ravens Progressive Matrices,2021.1.1,MacIntel,60.14675809
