key_resp.keys,key_resp.corr,key_resp.rt,totalScore,trials.thisRepN,trials.thisTrialN,trials.thisN,trials.thisIndex,trials.ran,index,image_file,correct,participant,session,date,expName,psychopyVersion,OS,frameRate
4,1,34.125585,1,0,0,0,0,1,0,1.jpg,4,30,001,2021-06-02_08h43.22.937,Ravens Progressive Matrices,2021.1.1,Win32,60.04202942
5,1,4.568075,2,0,1,1,1,1,1,2.jpg,5,30,001,2021-06-02_08h43.22.937,Ravens Progressive Matrices,2021.1.1,Win32,60.04202942
1,1,4.56418,3,0,2,2,2,1,2,3.jpg,1,30,001,2021-06-02_08h43.22.937,Ravens Progressive Matrices,2021.1.1,Win32,60.04202942
2,1,3.555965,4,0,3,3,3,1,3,4.jpg,2,30,001,2021-06-02_08h43.22.937,Ravens Progressive Matrices,2021.1.1,Win32,60.04202942
6,1,5.029805,5,0,4,4,4,1,4,5.jpg,6,30,001,2021-06-02_08h43.22.937,Ravens Progressive Matrices,2021.1.1,Win32,60.04202942
3,1,4.06526,6,0,5,5,5,1,5,6.jpg,3,30,001,2021-06-02_08h43.22.937,Ravens Progressive Matrices,2021.1.1,Win32,60.04202942
6,1,5.59224,7,0,6,6,6,1,6,7.jpg,6,30,001,2021-06-02_08h43.22.937,Ravens Progressive Matrices,2021.1.1,Win32,60.04202942
2,1,5.03858,8,0,7,7,7,1,7,8.jpg,2,30,001,2021-06-02_08h43.22.937,Ravens Progressive Matrices,2021.1.1,Win32,60.04202942
1,1,7.13505,9,0,8,8,8,1,8,9.jpg,1,30,001,2021-06-02_08h43.22.937,Ravens Progressive Matrices,2021.1.1,Win32,60.04202942
3,1,11.0554,10,0,9,9,9,1,9,10.jpg,3,30,001,2021-06-02_08h43.22.937,Ravens Progressive Matrices,2021.1.1,Win32,60.04202942
1,0,9.021055,10,0,10,10,10,1,10,11.jpg,5,30,001,2021-06-02_08h43.22.937,Ravens Progressive Matrices,2021.1.1,Win32,60.04202942
4,1,10.89002,11,0,11,11,11,1,11,12.jpg,4,30,001,2021-06-02_08h43.22.937,Ravens Progressive Matrices,2021.1.1,Win32,60.04202942
2,1,3.976835,12,0,12,12,12,1,12,13.jpg,2,30,001,2021-06-02_08h43.22.937,Ravens Progressive Matrices,2021.1.1,Win32,60.04202942
6,1,8.233935,13,0,13,13,13,1,13,14.jpg,6,30,001,2021-06-02_08h43.22.937,Ravens Progressive Matrices,2021.1.1,Win32,60.04202942
1,1,3.78025,14,0,14,14,14,1,14,15.jpg,1,30,001,2021-06-02_08h43.22.937,Ravens Progressive Matrices,2021.1.1,Win32,60.04202942
2,1,3.94185,15,0,15,15,15,1,15,16.jpg,2,30,001,2021-06-02_08h43.22.937,Ravens Progressive Matrices,2021.1.1,Win32,60.04202942
1,1,4.14362,16,0,16,16,16,1,16,17.jpg,1,30,001,2021-06-02_08h43.22.937,Ravens Progressive Matrices,2021.1.1,Win32,60.04202942
3,1,6.291255,17,0,17,17,17,1,17,18.jpg,3,30,001,2021-06-02_08h43.22.937,Ravens Progressive Matrices,2021.1.1,Win32,60.04202942
5,1,5.087735,18,0,18,18,18,1,18,19.jpg,5,30,001,2021-06-02_08h43.22.937,Ravens Progressive Matrices,2021.1.1,Win32,60.04202942
6,1,5.41916,19,0,19,19,19,1,19,20.jpg,6,30,001,2021-06-02_08h43.22.937,Ravens Progressive Matrices,2021.1.1,Win32,60.04202942
4,1,4.469145,20,0,20,20,20,1,20,21.jpg,4,30,001,2021-06-02_08h43.22.937,Ravens Progressive Matrices,2021.1.1,Win32,60.04202942
3,1,5.317165,21,0,21,21,21,1,21,22.jpg,3,30,001,2021-06-02_08h43.22.937,Ravens Progressive Matrices,2021.1.1,Win32,60.04202942
2,0,6.21494,21,0,22,22,22,1,22,23.jpg,4,30,001,2021-06-02_08h43.22.937,Ravens Progressive Matrices,2021.1.1,Win32,60.04202942
5,1,27.83455,22,0,23,23,23,1,23,24.jpg,5,30,001,2021-06-02_08h43.22.937,Ravens Progressive Matrices,2021.1.1,Win32,60.04202942
8,1,10.12031,23,0,24,24,24,1,24,25.jpg,8,30,001,2021-06-02_08h43.22.937,Ravens Progressive Matrices,2021.1.1,Win32,60.04202942
2,1,15.400225,24,0,25,25,25,1,25,26.jpg,2,30,001,2021-06-02_08h43.22.937,Ravens Progressive Matrices,2021.1.1,Win32,60.04202942
3,1,9.86814,25,0,26,26,26,1,26,27.jpg,3,30,001,2021-06-02_08h43.22.937,Ravens Progressive Matrices,2021.1.1,Win32,60.04202942
8,1,20.0592,26,0,27,27,27,1,27,28.jpg,8,30,001,2021-06-02_08h43.22.937,Ravens Progressive Matrices,2021.1.1,Win32,60.04202942
7,1,13.011065,27,0,28,28,28,1,28,29.jpg,7,30,001,2021-06-02_08h43.22.937,Ravens Progressive Matrices,2021.1.1,Win32,60.04202942
4,1,14.309855,28,0,29,29,29,1,29,30.jpg,4,30,001,2021-06-02_08h43.22.937,Ravens Progressive Matrices,2021.1.1,Win32,60.04202942
5,1,11.060235,29,0,30,30,30,1,30,31.jpg,5,30,001,2021-06-02_08h43.22.937,Ravens Progressive Matrices,2021.1.1,Win32,60.04202942
1,1,29.7651,30,0,31,31,31,1,31,32.jpg,1,30,001,2021-06-02_08h43.22.937,Ravens Progressive Matrices,2021.1.1,Win32,60.04202942
7,1,27.668225,31,0,32,32,32,1,32,33.jpg,7,30,001,2021-06-02_08h43.22.937,Ravens Progressive Matrices,2021.1.1,Win32,60.04202942
8,0,65.626585,31,0,33,33,33,1,33,34.jpg,6,30,001,2021-06-02_08h43.22.937,Ravens Progressive Matrices,2021.1.1,Win32,60.04202942
5,0,19.10814,31,0,34,34,34,1,34,35.jpg,1,30,001,2021-06-02_08h43.22.937,Ravens Progressive Matrices,2021.1.1,Win32,60.04202942
2,1,31.20174,32,0,35,35,35,1,35,36.jpg,2,30,001,2021-06-02_08h43.22.937,Ravens Progressive Matrices,2021.1.1,Win32,60.04202942
3,1,7.2279,33,0,36,36,36,1,36,37.jpg,3,30,001,2021-06-02_08h43.22.937,Ravens Progressive Matrices,2021.1.1,Win32,60.04202942
4,1,14.64762,34,0,37,37,37,1,37,38.jpg,4,30,001,2021-06-02_08h43.22.937,Ravens Progressive Matrices,2021.1.1,Win32,60.04202942
4,0,0.088655,34,0,38,38,38,1,38,39.jpg,3,30,001,2021-06-02_08h43.22.937,Ravens Progressive Matrices,2021.1.1,Win32,60.04202942
2,0,9.073345,34,0,39,39,39,1,39,40.jpg,7,30,001,2021-06-02_08h43.22.937,Ravens Progressive Matrices,2021.1.1,Win32,60.04202942
8,1,12.69625,35,0,40,40,40,1,40,41.jpg,8,30,001,2021-06-02_08h43.22.937,Ravens Progressive Matrices,2021.1.1,Win32,60.04202942
6,1,19.698625,36,0,41,41,41,1,41,42.jpg,6,30,001,2021-06-02_08h43.22.937,Ravens Progressive Matrices,2021.1.1,Win32,60.04202942
5,1,18.84672,37,0,42,42,42,1,42,43.jpg,5,30,001,2021-06-02_08h43.22.937,Ravens Progressive Matrices,2021.1.1,Win32,60.04202942
4,1,27.384645,38,0,43,43,43,1,43,44.jpg,4,30,001,2021-06-02_08h43.22.937,Ravens Progressive Matrices,2021.1.1,Win32,60.04202942
1,1,27.48678,39,0,44,44,44,1,44,45.jpg,1,30,001,2021-06-02_08h43.22.937,Ravens Progressive Matrices,2021.1.1,Win32,60.04202942
2,1,52.595815,40,0,45,45,45,1,45,46.jpg,2,30,001,2021-06-02_08h43.22.937,Ravens Progressive Matrices,2021.1.1,Win32,60.04202942
7,0,53.337885,40,0,46,46,46,1,46,47.jpg,5,30,001,2021-06-02_08h43.22.937,Ravens Progressive Matrices,2021.1.1,Win32,60.04202942
6,0,53.01927,40,0,47,47,47,1,47,48.jpg,7,30,001,2021-06-02_08h43.22.937,Ravens Progressive Matrices,2021.1.1,Win32,60.04202942
7,1,13.87528,41,0,48,48,48,1,48,49.jpg,7,30,001,2021-06-02_08h43.22.937,Ravens Progressive Matrices,2021.1.1,Win32,60.04202942
6,1,16.00315,42,0,49,49,49,1,49,50.jpg,6,30,001,2021-06-02_08h43.22.937,Ravens Progressive Matrices,2021.1.1,Win32,60.04202942
8,1,16.969855,43,0,50,50,50,1,50,51.jpg,8,30,001,2021-06-02_08h43.22.937,Ravens Progressive Matrices,2021.1.1,Win32,60.04202942
2,1,15.355855,44,0,51,51,51,1,51,52.jpg,2,30,001,2021-06-02_08h43.22.937,Ravens Progressive Matrices,2021.1.1,Win32,60.04202942
1,1,10.557465,45,0,52,52,52,1,52,53.jpg,1,30,001,2021-06-02_08h43.22.937,Ravens Progressive Matrices,2021.1.1,Win32,60.04202942
5,1,22.301125,46,0,53,53,53,1,53,54.jpg,5,30,001,2021-06-02_08h43.22.937,Ravens Progressive Matrices,2021.1.1,Win32,60.04202942
6,1,41.05789,47,0,54,54,54,1,54,55.jpg,6,30,001,2021-06-02_08h43.22.937,Ravens Progressive Matrices,2021.1.1,Win32,60.04202942
1,0,92.940835,47,0,55,55,55,1,55,56.jpg,4,30,001,2021-06-02_08h43.22.937,Ravens Progressive Matrices,2021.1.1,Win32,60.04202942
4,0,78.707325,47,0,56,56,56,1,56,57.jpg,1,30,001,2021-06-02_08h43.22.937,Ravens Progressive Matrices,2021.1.1,Win32,60.04202942
2,0,45.88587,47,0,57,57,57,1,57,58.jpg,6,30,001,2021-06-02_08h43.22.937,Ravens Progressive Matrices,2021.1.1,Win32,60.04202942
